Wavelength (Âµm)	ALH-271, spot f
0.30000	0.057685
0.30500	0.060534
0.31000	0.062072
0.31500	0.064111
0.32000	0.068480
0.32500	0.071183
0.33000	0.074777
0.33500	0.078965
0.34000	0.082435
0.34500	0.086173
0.35000	0.090999
0.35500	0.094995
0.36000	0.099534
0.36500	0.10473
0.37000	0.10834
0.37500	0.11285
0.38000	0.11743
0.38500	0.12090
0.39000	0.12473
0.39500	0.12808
0.40000	0.13209
0.40500	0.13590
0.41000	0.13773
0.41500	0.14179
0.42000	0.14447
0.42500	0.14588
0.43000	0.14743
0.43500	0.14920
0.44000	0.15044
0.44500	0.15162
0.45000	0.15320
0.45500	0.15445
0.46000	0.15638
0.46500	0.15772
0.47000	0.15935
0.47500	0.16070
0.48000	0.16214
0.48500	0.16366
0.49000	0.16520
0.49500	0.16720
0.50000	0.16865
0.50500	0.16756
0.51000	0.17121
0.51500	0.17481
0.52000	0.17717
0.52500	0.17934
0.53000	0.18044
0.53500	0.18155
0.54000	0.18194
0.54500	0.18169
0.55000	0.18254
0.55500	0.18381
0.56000	0.18538
0.56500	0.18682
0.57000	0.18745
0.57500	0.18798
0.58000	0.18889
0.58500	0.18952
0.59000	0.19001
0.59500	0.19022
0.60000	0.19047
0.60500	0.19097
0.61000	0.19094
0.61500	0.19169
0.62000	0.19188
0.62500	0.19180
0.63000	0.19213
0.63500	0.19201
0.64000	0.19253
0.64500	0.19217
0.65000	0.19225
0.65500	0.19177
0.66000	0.19171
0.66500	0.19132
0.67000	0.19140
0.67500	0.19115
0.68000	0.19208
0.68500	0.19122
0.69000	0.19072
0.69500	0.18999
0.70000	0.18974
0.70500	0.18920
0.71000	0.18930
0.71500	0.18837
0.72000	0.18813
0.72500	0.18722
0.73000	0.18564
0.73500	0.18414
0.74000	0.18288
0.74500	0.18143
0.75000	0.17957
0.75500	0.17739
0.76000	0.17253
0.76500	0.16979
0.77000	0.16624
0.77500	0.16308
0.78000	0.15879
0.78500	0.15483
0.79000	0.15049
0.79500	0.14595
0.80000	0.14078
0.80500	0.13604
0.81000	0.13146
0.81500	0.12724
0.82000	0.12274
0.82500	0.11866
0.83000	0.11439
0.83500	0.11083
0.84000	0.10715
0.84500	0.10359
0.85000	0.10099
0.85500	0.097655
0.86000	0.095354
0.86500	0.092999
0.87000	0.090642
0.87500	0.088341
0.88000	0.086438
0.88500	0.084687
0.89000	0.082984
0.89500	0.081472
0.90000	0.080072
0.90500	0.079474
0.91000	0.078286
0.91500	0.077869
0.92000	0.077461
0.92500	0.077081
0.93000	0.076681
0.93500	0.076998
0.94000	0.077151
0.94500	0.077508
0.95000	0.078030
0.95500	0.078737
0.96000	0.079724
0.96500	0.080457
0.97000	0.082012
0.97500	0.083375
0.98000	0.084670
0.98500	0.086661
0.99000	0.088489
0.99500	0.090660
1.0000	0.092736
1.0050	0.095211
1.0100	0.097521
1.0150	0.10019
1.0200	0.10300
1.0250	0.10572
1.0300	0.10851
1.0350	0.11154
1.0400	0.11407
1.0450	0.11677
1.0500	0.11998
1.0550	0.12234
1.0600	0.12485
1.0650	0.12715
1.0700	0.12933
1.0750	0.13136
1.0800	0.13319
1.0850	0.13491
1.0900	0.13645
1.0950	0.13821
1.1000	0.13943
1.1050	0.14065
1.1100	0.14165
1.1150	0.14270
1.1200	0.14383
1.1250	0.14428
1.1300	0.14502
1.1350	0.14538
1.1400	0.14615
1.1450	0.14650
1.1500	0.14699
1.1550	0.14771
1.1600	0.14780
1.1650	0.14813
1.1700	0.14827
1.1750	0.14885
1.1800	0.14954
1.1850	0.14929
1.1900	0.14985
1.1950	0.15039
1.2000	0.15071
1.2050	0.15134
1.2100	0.15160
1.2150	0.15227
1.2200	0.15254
1.2250	0.15270
1.2300	0.15270
1.2350	0.15301
1.2400	0.15347
1.2450	0.15353
1.2500	0.15371
1.2550	0.15430
1.2600	0.15404
1.2650	0.15474
1.2700	0.15488
1.2750	0.15487
1.2800	0.15519
1.2850	0.15562
1.2900	0.15592
1.2950	0.15634
1.3000	0.15669
1.3050	0.15673
1.3100	0.15713
1.3150	0.15749
1.3200	0.15778
1.3250	0.15833
1.3300	0.15820
1.3350	0.15870
1.3400	0.15884
1.3450	0.15887
1.3500	0.15875
1.3550	0.15878
1.3600	0.15857
1.3650	0.15924
1.3700	0.15911
1.3750	0.15946
1.3800	0.15888
1.3850	0.15985
1.3900	0.15946
1.3950	0.15874
1.4000	0.15830
1.4050	0.15803
1.4100	0.15847
1.4150	0.15809
1.4200	0.15778
1.4250	0.15766
1.4300	0.15762
1.4350	0.15704
1.4400	0.15648
1.4450	0.15595
1.4500	0.15547
1.4550	0.15519
1.4600	0.15439
1.4650	0.15396
1.4700	0.15306
1.4750	0.15263
1.4800	0.15184
1.4850	0.15095
1.4900	0.15049
1.4950	0.14946
1.5000	0.14881
1.5050	0.14795
1.5100	0.14706
1.5150	0.14626
1.5200	0.14530
1.5250	0.14439
1.5300	0.14331
1.5350	0.14212
1.5400	0.14131
1.5450	0.14035
1.5500	0.13910
1.5550	0.13821
1.5600	0.13691
1.5650	0.13612
1.5700	0.13430
1.5750	0.13337
1.5800	0.13246
1.5850	0.13118
1.5900	0.12980
1.5950	0.12908
1.6000	0.12825
1.6050	0.12669
1.6100	0.12580
1.6150	0.12482
1.6200	0.12383
1.6250	0.12276
1.6300	0.12142
1.6350	0.12008
1.6400	0.11931
1.6450	0.11854
1.6500	0.11683
1.6550	0.11597
1.6600	0.11586
1.6650	0.11450
1.6700	0.11368
1.6750	0.11255
1.6800	0.11160
1.6850	0.11039
1.6900	0.10975
1.6950	0.10888
1.7000	0.10830
1.7050	0.10714
1.7100	0.10623
1.7150	0.10527
1.7200	0.10434
1.7250	0.10338
1.7300	0.10248
1.7350	0.10172
1.7400	0.10095
1.7450	0.10031
1.7500	0.099503
1.7550	0.098588
1.7600	0.097950
1.7650	0.097341
1.7700	0.096631
1.7750	0.095909
1.7800	0.095133
1.7850	0.094533
1.7900	0.093971
1.7950	0.093304
1.8000	0.092665
1.8050	0.092000
1.8100	0.091537
1.8150	0.090964
1.8200	0.090281
1.8250	0.090291
1.8300	0.089567
1.8350	0.088870
1.8400	0.088391
1.8450	0.088490
1.8500	0.087829
1.8550	0.087654
1.8600	0.087205
1.8650	0.087013
1.8700	0.085626
1.8750	0.086319
1.8800	0.086553
1.8850	0.085596
1.8900	0.085352
1.8950	0.085126
1.9000	0.084436
1.9050	0.084621
1.9100	0.084589
1.9150	0.084107
1.9200	0.083971
1.9250	0.084186
1.9300	0.083796
1.9350	0.083883
1.9400	0.083557
1.9450	0.083427
1.9500	0.083164
1.9550	0.083010
1.9600	0.082965
1.9650	0.082860
1.9700	0.083119
1.9750	0.083118
1.9800	0.082994
1.9850	0.083133
1.9900	0.083082
1.9950	0.083060
2.0000	0.083217
2.0050	0.083287
2.0100	0.083549
2.0150	0.083642
2.0200	0.083581
2.0250	0.083935
2.0300	0.084068
2.0350	0.084346
2.0400	0.084463
2.0450	0.084723
2.0500	0.084844
2.0550	0.085082
2.0600	0.085536
2.0650	0.085483
2.0700	0.085841
2.0750	0.086173
2.0800	0.086366
2.0850	0.086645
2.0900	0.087071
2.0950	0.087476
2.1000	0.087852
2.1050	0.088021
2.1100	0.088629
2.1150	0.088999
2.1200	0.089145
2.1250	0.089578
2.1300	0.090169
2.1350	0.090311
2.1400	0.091011
2.1450	0.091282
2.1500	0.091996
2.1550	0.092343
2.1600	0.092843
2.1650	0.093148
2.1700	0.093767
2.1750	0.094315
2.1800	0.095227
2.1850	0.095656
2.1900	0.096448
2.1950	0.096760
2.2000	0.097344
2.2050	0.098143
2.2100	0.098950
2.2150	0.099530
2.2200	0.10018
2.2250	0.10079
2.2300	0.10126
2.2350	0.10222
2.2400	0.10272
2.2450	0.10354
2.2500	0.10411
2.2550	0.10503
2.2600	0.10562
2.2650	0.10620
2.2700	0.10701
2.2750	0.10799
2.2800	0.10857
2.2850	0.10909
2.2900	0.10986
2.2950	0.11075
2.3000	0.11129
2.3050	0.11211
2.3100	0.11298
2.3150	0.11368
2.3200	0.11427
2.3250	0.11489
2.3300	0.11574
2.3350	0.11643
2.3400	0.11716
2.3450	0.11799
2.3500	0.11863
2.3550	0.11929
2.3600	0.12009
2.3650	0.12084
2.3700	0.12231
2.3750	0.12299
2.3800	0.12400
2.3850	0.12474
2.3900	0.12553
2.3950	0.12624
2.4000	0.12693
2.4050	0.12782
2.4100	0.12861
2.4150	0.12933
2.4200	0.13019
2.4250	0.13122
2.4300	0.13194
2.4350	0.13207
2.4400	0.13311
2.4450	0.13345
2.4500	0.13402
2.4550	0.13473
2.4600	0.13527
2.4650	0.13605
2.4700	0.13642
2.4750	0.13771
2.4800	0.13792
2.4850	0.13844
2.4900	0.13899
2.4950	0.13944
2.5000	0.14018
2.5020	0.14078
2.5032	0.14040
2.5044	0.14041
2.5056	0.14015
2.5068	0.13969
2.5080	0.14009
2.5093	0.14149
2.5105	0.14207
2.5117	0.14162
2.5129	0.14081
2.5141	0.14188
2.5153	0.14209
2.5166	0.14208
2.5178	0.14234
2.5190	0.14246
2.5202	0.14153
2.5215	0.14128
2.5227	0.14202
2.5239	0.14233
2.5252	0.14150
2.5264	0.14089
2.5276	0.14096
2.5288	0.14173
2.5301	0.14230
2.5313	0.14273
2.5326	0.14348
2.5338	0.14315
2.5350	0.14246
2.5363	0.14198
2.5375	0.14279
2.5388	0.14352
2.5400	0.14195
2.5412	0.14160
2.5425	0.14247
2.5437	0.14269
2.5450	0.14285
2.5462	0.14345
2.5475	0.14336
2.5487	0.14331
2.5500	0.14314
2.5512	0.14226
2.5525	0.14153
2.5538	0.14162
2.5550	0.14234
2.5563	0.14252
2.5575	0.14258
2.5588	0.14313
2.5601	0.14287
2.5613	0.14193
2.5626	0.14355
2.5639	0.14485
2.5651	0.14434
2.5664	0.14447
2.5677	0.14408
2.5689	0.14313
2.5702	0.14276
2.5715	0.14398
2.5728	0.14525
2.5740	0.14393
2.5753	0.14391
2.5766	0.14414
2.5779	0.14325
2.5792	0.14392
2.5805	0.14453
2.5817	0.14307
2.5830	0.14258
2.5843	0.14284
2.5856	0.14407
2.5869	0.14545
2.5882	0.14474
2.5895	0.14419
2.5908	0.14390
2.5921	0.14389
2.5934	0.14431
2.5947	0.14378
2.5960	0.14450
2.5973	0.14874
2.5986	0.14885
2.5999	0.14612
2.6012	0.14445
2.6025	0.14415
2.6038	0.14401
2.6051	0.14393
2.6064	0.14429
2.6077	0.14586
2.6090	0.14550
2.6103	0.14472
2.6117	0.14522
2.6130	0.14596
2.6143	0.14562
2.6156	0.14518
2.6169	0.14446
2.6182	0.14456
2.6196	0.14582
2.6209	0.14461
2.6222	0.14481
2.6235	0.14685
2.6249	0.14585
2.6262	0.14518
2.6275	0.14455
2.6289	0.14536
2.6302	0.14672
2.6315	0.14631
2.6329	0.14755
2.6342	0.14704
2.6356	0.14476
2.6369	0.14400
2.6382	0.14303
2.6396	0.14372
2.6409	0.14432
2.6423	0.14353
2.6436	0.14325
2.6450	0.14300
2.6463	0.14327
2.6477	0.14407
2.6490	0.14327
2.6504	0.14250
2.6517	0.14211
2.6531	0.14202
2.6544	0.14396
2.6558	0.14551
2.6572	0.14403
2.6585	0.14296
2.6599	0.14244
2.6613	0.14300
2.6626	0.14381
2.6640	0.14360
2.6654	0.14234
2.6667	0.14348
2.6681	0.14590
2.6695	0.14529
2.6709	0.14267
2.6722	0.14327
2.6736	0.14491
2.6750	0.14187
2.6764	0.13938
2.6778	0.14011
2.6791	0.14155
2.6805	0.14073
2.6819	0.14063
2.6833	0.13978
2.6847	0.13816
2.6861	0.13782
2.6875	0.13713
2.6889	0.13717
2.6903	0.13739
2.6917	0.13654
2.6931	0.13559
2.6945	0.13553
2.6959	0.13622
2.6973	0.13690
2.6987	0.13640
2.7001	0.13452
2.7015	0.13228
2.7029	0.13195
2.7043	0.13277
2.7057	0.13275
2.7071	0.13139
2.7085	0.12969
2.7100	0.12887
2.7114	0.12898
2.7128	0.12885
2.7142	0.12885
2.7156	0.12778
2.7171	0.12555
2.7185	0.12358
2.7199	0.12273
2.7213	0.12211
2.7228	0.12230
2.7242	0.12186
2.7256	0.12073
2.7271	0.12157
2.7285	0.12069
2.7299	0.11957
2.7314	0.11865
2.7328	0.11831
2.7342	0.11753
2.7357	0.11622
2.7371	0.11698
2.7386	0.11783
2.7400	0.11717
2.7415	0.11817
2.7429	0.11899
2.7444	0.11769
2.7458	0.11603
2.7473	0.11472
2.7487	0.11377
2.7502	0.11343
2.7517	0.11314
2.7531	0.11186
2.7546	0.11097
2.7561	0.11124
2.7575	0.11346
2.7590	0.11325
2.7605	0.11058
2.7619	0.10941
2.7634	0.10945
2.7649	0.10992
2.7663	0.11041
2.7678	0.10940
2.7693	0.10870
2.7708	0.10861
2.7723	0.10915
2.7737	0.10931
2.7752	0.10859
2.7767	0.10825
2.7782	0.10723
2.7797	0.10630
2.7812	0.10575
2.7827	0.10562
2.7842	0.10605
2.7857	0.10675
2.7872	0.10671
2.7887	0.10576
2.7902	0.10587
2.7917	0.10611
2.7932	0.10569
2.7947	0.10438
2.7962	0.10323
2.7977	0.10349
2.7992	0.10432
2.8007	0.10364
2.8022	0.10341
2.8038	0.10365
2.8053	0.10402
2.8068	0.10402
2.8083	0.10323
2.8098	0.10250
2.8114	0.10261
2.8129	0.10266
2.8144	0.10269
2.8159	0.10236
2.8175	0.10157
2.8190	0.10166
2.8205	0.10144
2.8221	0.10138
2.8236	0.10163
2.8251	0.10125
2.8267	0.10125
2.8282	0.10198
2.8298	0.10160
2.8313	0.10112
2.8329	0.10087
2.8344	0.099750
2.8360	0.099231
2.8375	0.099901
2.8391	0.10064
2.8406	0.10034
2.8422	0.099776
2.8437	0.10029
2.8453	0.10047
2.8469	0.10038
2.8484	0.10052
2.8500	0.10043
2.8516	0.10008
2.8531	0.099931
2.8547	0.099625
2.8563	0.099201
2.8578	0.099995
2.8594	0.099955
2.8610	0.099499
2.8626	0.099906
2.8642	0.10001
2.8657	0.10026
2.8673	0.10056
2.8689	0.10001
2.8705	0.099220
2.8721	0.098475
2.8737	0.098207
2.8753	0.098784
2.8769	0.099167
2.8785	0.099161
2.8801	0.099233
2.8817	0.099092
2.8833	0.098622
2.8849	0.098771
2.8865	0.099160
2.8881	0.098899
2.8897	0.099046
2.8913	0.099171
2.8929	0.099131
2.8945	0.098562
2.8962	0.098803
2.8978	0.099114
2.8994	0.098075
2.9010	0.097628
2.9027	0.098524
2.9043	0.099026
2.9059	0.099295
2.9075	0.099188
2.9092	0.098360
2.9108	0.097724
2.9124	0.097734
2.9141	0.098305
2.9157	0.098599
2.9174	0.098647
2.9190	0.098733
2.9206	0.098079
2.9223	0.097758
2.9239	0.097832
2.9256	0.097809
2.9272	0.098275
2.9289	0.098594
2.9305	0.097992
2.9322	0.097945
2.9339	0.098156
2.9355	0.097868
2.9372	0.097773
2.9389	0.097004
2.9405	0.096687
2.9422	0.097391
2.9439	0.098098
2.9455	0.097790
2.9472	0.097202
2.9489	0.097441
2.9506	0.097334
2.9522	0.096998
2.9539	0.096987
2.9556	0.097230
2.9573	0.096859
2.9590	0.096674
2.9607	0.097130
2.9624	0.097074
2.9641	0.096676
2.9658	0.096851
2.9674	0.096759
2.9691	0.096057
2.9709	0.095778
2.9726	0.096210
2.9743	0.096574
2.9760	0.096723
2.9777	0.096591
2.9794	0.096370
2.9811	0.096557
2.9828	0.096500
2.9845	0.095970
2.9863	0.095648
2.9880	0.095427
2.9897	0.095769
2.9914	0.096119
2.9931	0.096035
2.9949	0.095870
2.9966	0.095703
2.9983	0.096065
3.0001	0.096110
3.0018	0.096250
3.0036	0.096668
3.0053	0.096738
3.0070	0.096036
3.0088	0.096078
3.0105	0.096308
3.0123	0.096008
3.0140	0.095969
3.0158	0.096146
3.0175	0.096423
3.0193	0.096483
3.0211	0.096383
3.0228	0.096025
3.0246	0.095718
3.0263	0.095606
3.0281	0.095448
3.0299	0.095986
3.0317	0.096312
3.0334	0.095767
3.0352	0.095927
3.0370	0.095597
3.0388	0.095286
3.0405	0.095029
3.0423	0.095210
3.0441	0.095299
3.0459	0.095363
3.0477	0.095388
3.0495	0.095101
3.0513	0.095423
3.0531	0.095601
3.0549	0.094784
3.0567	0.094639
3.0585	0.094952
3.0603	0.095391
3.0621	0.095572
3.0639	0.094875
3.0657	0.094526
3.0675	0.094799
3.0694	0.094828
3.0712	0.095361
3.0730	0.095539
3.0748	0.095050
3.0766	0.094641
3.0785	0.094573
3.0803	0.094360
3.0821	0.094035
3.0840	0.094267
3.0858	0.094903
3.0876	0.095393
3.0895	0.094805
3.0913	0.094373
3.0932	0.094313
3.0950	0.094324
3.0969	0.094454
3.0987	0.094613
3.1006	0.094903
3.1024	0.094771
3.1043	0.094360
3.1061	0.093960
3.1080	0.094235
3.1099	0.094707
3.1117	0.094539
3.1136	0.094096
3.1155	0.094286
3.1173	0.094409
3.1192	0.094015
3.1211	0.093658
3.1230	0.094232
3.1249	0.094454
3.1267	0.094232
3.1286	0.094284
3.1305	0.094343
3.1324	0.094113
3.1343	0.094475
3.1362	0.094505
3.1381	0.094183
3.1400	0.094220
3.1419	0.094079
3.1438	0.094086
3.1457	0.094211
3.1476	0.094066
3.1495	0.093817
3.1514	0.094115
3.1534	0.094828
3.1553	0.094705
3.1572	0.094415
3.1591	0.094522
3.1611	0.094475
3.1630	0.094071
3.1649	0.093900
3.1669	0.094407
3.1688	0.094882
3.1707	0.094550
3.1727	0.094360
3.1746	0.094179
3.1766	0.094439
3.1785	0.094548
3.1805	0.094696
3.1824	0.094684
3.1844	0.094320
3.1863	0.093894
3.1883	0.094132
3.1902	0.094850
3.1922	0.095195
3.1942	0.094573
3.1961	0.094375
3.1981	0.094669
3.2001	0.094892
3.2021	0.094726
3.2040	0.094662
3.2060	0.094918
3.2080	0.095227
3.2100	0.095252
3.2120	0.095127
3.2140	0.095107
3.2160	0.095246
3.2180	0.095316
3.2200	0.095122
3.2220	0.095124
3.2240	0.095248
3.2260	0.095169
3.2280	0.094980
3.2300	0.094835
3.2320	0.095103
3.2340	0.095067
3.2360	0.094977
3.2381	0.095433
3.2401	0.095518
3.2421	0.095027
3.2441	0.095286
3.2462	0.095631
3.2482	0.095561
3.2502	0.095356
3.2523	0.095269
3.2543	0.095452
3.2564	0.095324
3.2584	0.095061
3.2605	0.095061
3.2625	0.095082
3.2646	0.095344
3.2666	0.095122
3.2687	0.094939
3.2707	0.094554
3.2728	0.094492
3.2749	0.094788
3.2770	0.094984
3.2790	0.095043
3.2811	0.095020
3.2832	0.095126
3.2853	0.094941
3.2873	0.094805
3.2894	0.094990
3.2915	0.095316
3.2936	0.095452
3.2957	0.095408
3.2978	0.095282
3.2999	0.095199
3.3020	0.095218
3.3041	0.095316
3.3062	0.095559
3.3083	0.095312
3.3104	0.094931
3.3125	0.095067
3.3147	0.095175
3.3168	0.095188
3.3189	0.095459
3.3210	0.095378
3.3232	0.095559
3.3253	0.095450
3.3274	0.095222
3.3296	0.095346
3.3317	0.095220
3.3338	0.094922
3.3360	0.095031
3.3381	0.094986
3.3403	0.095056
3.3424	0.094958
3.3446	0.094584
3.3468	0.094916
3.3489	0.094948
3.3511	0.094377
3.3533	0.094300
3.3554	0.094967
3.3576	0.095150
3.3598	0.095137
3.3620	0.095469
3.3641	0.095752
3.3663	0.095814
3.3685	0.095405
3.3707	0.095078
3.3729	0.095044
3.3751	0.095452
3.3773	0.095380
3.3795	0.095143
3.3817	0.095197
3.3839	0.095314
3.3861	0.095307
3.3883	0.094967
3.3905	0.094877
3.3928	0.095425
3.3950	0.095437
3.3972	0.095241
3.3994	0.095299
3.4017	0.095369
3.4039	0.094697
3.4061	0.094575
3.4084	0.094952
3.4106	0.095171
3.4129	0.095473
3.4151	0.095175
3.4174	0.094584
3.4196	0.094377
3.4219	0.094647
3.4241	0.095107
3.4264	0.095146
3.4287	0.095052
3.4309	0.095429
3.4332	0.095410
3.4355	0.095129
3.4378	0.095005
3.4400	0.094960
3.4423	0.095039
3.4446	0.095297
3.4469	0.095569
3.4492	0.095522
3.4515	0.095259
3.4538	0.095143
3.4561	0.095186
3.4584	0.095384
3.4607	0.095093
3.4630	0.095141
3.4653	0.095363
3.4676	0.095503
3.4700	0.095258
3.4723	0.095224
3.4746	0.095473
3.4770	0.095525
3.4793	0.095207
3.4816	0.095014
3.4840	0.095112
3.4863	0.094935
3.4887	0.094643
3.4910	0.094731
3.4934	0.094939
3.4957	0.095003
3.4981	0.094986
3.5004	0.094950
3.5028	0.094765
3.5052	0.094905
3.5075	0.095016
3.5099	0.095016
3.5123	0.094846
3.5147	0.094743
3.5171	0.094978
3.5194	0.095043
3.5218	0.094899
3.5242	0.094888
3.5266	0.095078
3.5290	0.095254
3.5314	0.095523
3.5338	0.095567
3.5362	0.095623
3.5387	0.095718
3.5411	0.095716
3.5435	0.095804
3.5459	0.095633
3.5483	0.095804
3.5508	0.095876
3.5532	0.095622
3.5556	0.095814
3.5581	0.095461
3.5605	0.095197
3.5630	0.095512
3.5654	0.095378
3.5679	0.095135
3.5703	0.095337
3.5728	0.095399
3.5753	0.095341
3.5777	0.095727
3.5802	0.095761
3.5827	0.095789
3.5852	0.096114
3.5876	0.095927
3.5901	0.095697
3.5926	0.095761
3.5951	0.095927
3.5976	0.095889
3.6001	0.095622
3.6026	0.095614
3.6051	0.095967
3.6076	0.095948
3.6101	0.095640
3.6126	0.095584
3.6152	0.096010
3.6177	0.096285
3.6202	0.096393
3.6227	0.096312
3.6253	0.096302
3.6278	0.096529
3.6303	0.096365
3.6329	0.096065
3.6354	0.096250
3.6380	0.096402
3.6405	0.096278
3.6431	0.096261
3.6457	0.096206
3.6482	0.096246
3.6508	0.096250
3.6534	0.096265
3.6559	0.096363
3.6585	0.096540
3.6611	0.096355
3.6637	0.096168
3.6663	0.096206
3.6689	0.096681
3.6715	0.096851
3.6741	0.096944
3.6767	0.096815
3.6793	0.096691
3.6819	0.096776
3.6845	0.096642
3.6872	0.096572
3.6898	0.096457
3.6924	0.096548
3.6950	0.096608
3.6977	0.096536
3.7003	0.096476
3.7030	0.096091
3.7056	0.096123
3.7083	0.096278
3.7109	0.096091
3.7136	0.096257
3.7162	0.096529
3.7189	0.096540
3.7216	0.096595
3.7242	0.096647
3.7269	0.096572
3.7296	0.096574
3.7323	0.096802
3.7350	0.096766
3.7377	0.096532
3.7404	0.096421
3.7431	0.096548
3.7458	0.096276
3.7485	0.096210
3.7512	0.096299
3.7539	0.096174
3.7566	0.096274
3.7593	0.096312
3.7621	0.096144
3.7648	0.096221
3.7675	0.096568
3.7703	0.096666
3.7730	0.096551
3.7758	0.096395
3.7785	0.096344
3.7813	0.096089
3.7840	0.095863
3.7868	0.096306
3.7896	0.096763
3.7923	0.096874
3.7951	0.096876
3.7979	0.096655
3.8007	0.096325
3.8035	0.096329
3.8063	0.096472
3.8091	0.096397
3.8119	0.096431
3.8147	0.096491
3.8175	0.096719
3.8203	0.097051
3.8231	0.096961
3.8259	0.096638
3.8288	0.096787
3.8316	0.097087
3.8344	0.097151
3.8373	0.096902
3.8401	0.096570
3.8429	0.096399
3.8458	0.096440
3.8487	0.096559
3.8515	0.096819
3.8544	0.097045
3.8572	0.096925
3.8601	0.096895
3.8630	0.096878
3.8659	0.096870
3.8688	0.096744
3.8716	0.096638
3.8745	0.097032
3.8774	0.097093
3.8803	0.097202
3.8832	0.097221
3.8862	0.097251
3.8891	0.097351
3.8920	0.097228
3.8949	0.097113
3.8978	0.097196
3.9008	0.097298
3.9037	0.097060
3.9067	0.096985
3.9096	0.097387
3.9126	0.097600
3.9155	0.097268
3.9185	0.097226
3.9214	0.097253
3.9244	0.097245
3.9274	0.096961
3.9304	0.096838
3.9333	0.096987
3.9363	0.096770
3.9393	0.096693
3.9423	0.096695
3.9453	0.096653
3.9483	0.096766
3.9513	0.096891
3.9543	0.097027
3.9574	0.096840
3.9604	0.096310
3.9634	0.096417
3.9664	0.096574
3.9695	0.096372
3.9725	0.096431
3.9756	0.096566
3.9786	0.096542
3.9817	0.096297
3.9847	0.096097
3.9878	0.096095
3.9909	0.096368
3.9939	0.096451
3.9970	0.096287
4.0001	0.096104
4.0032	0.096293
4.0063	0.096410
4.0094	0.096536
4.0125	0.096561
4.0156	0.096536
4.0187	0.096331
4.0218	0.096366
4.0249	0.096493
4.0281	0.096646
4.0312	0.096480
4.0343	0.096449
4.0375	0.096489
4.0406	0.096336
4.0438	0.096195
4.0469	0.095963
4.0501	0.096121
4.0533	0.096189
4.0564	0.096097
4.0596	0.096361
4.0628	0.096517
4.0660	0.096432
4.0692	0.096427
4.0724	0.096351
4.0756	0.096223
4.0788	0.096248
4.0820	0.096361
4.0852	0.096193
4.0884	0.096157
4.0917	0.096225
4.0949	0.096370
4.0981	0.096383
4.1014	0.096393
4.1046	0.096253
4.1079	0.096306
4.1111	0.096463
4.1144	0.096391
4.1177	0.096217
4.1209	0.095970
4.1242	0.095897
4.1275	0.096067
4.1308	0.096238
4.1341	0.096153
4.1374	0.096063
4.1407	0.095916
4.1440	0.095929
4.1473	0.096025
4.1506	0.096142
4.1540	0.096199
4.1573	0.096246
4.1606	0.096063
4.1640	0.095763
4.1673	0.095801
4.1707	0.095825
4.1740	0.095884
4.1774	0.096025
4.1808	0.096155
4.1841	0.096116
4.1875	0.096027
4.1909	0.096172
4.1943	0.096463
4.1977	0.096238
4.2011	0.096134
4.2045	0.096310
4.2079	0.096174
4.2113	0.096142
4.2147	0.096380
4.2182	0.096795
4.2216	0.097110
4.2250	0.097330
4.2285	0.097645
4.2319	0.098005
4.2354	0.098000
4.2389	0.097949
4.2423	0.098117
4.2458	0.097698
4.2493	0.097326
4.2528	0.096838
4.2563	0.096474
4.2598	0.096116
4.2633	0.096078
4.2668	0.096489
4.2703	0.096761
4.2738	0.097066
4.2773	0.097532
4.2809	0.097321
4.2844	0.097125
4.2880	0.097289
4.2915	0.097441
4.2951	0.097502
4.2986	0.097585
4.3022	0.097558
4.3058	0.097543
4.3093	0.097372
4.3129	0.097102
4.3165	0.097145
4.3201	0.097132
4.3237	0.096977
4.3273	0.096700
4.3309	0.096508
4.3346	0.096546
4.3382	0.096634
4.3418	0.096270
4.3455	0.096272
4.3491	0.096512
4.3528	0.096257
4.3564	0.096333
4.3601	0.096753
4.3637	0.096947
4.3674	0.096800
4.3711	0.096510
4.3748	0.096619
4.3785	0.096923
4.3822	0.096906
4.3859	0.096755
4.3896	0.096612
4.3933	0.096862
4.3971	0.096993
4.4008	0.096819
4.4045	0.096962
4.4083	0.096876
4.4120	0.096717
4.4158	0.096776
4.4196	0.096789
4.4233	0.096789
4.4271	0.097040
4.4309	0.097226
4.4347	0.097000
4.4385	0.096878
4.4423	0.096989
4.4461	0.096996
4.4499	0.097027
4.4537	0.097189
4.4576	0.097215
4.4614	0.097060
4.4652	0.097064
4.4691	0.097072
4.4729	0.097198
4.4768	0.097419
4.4807	0.097347
4.4845	0.097317
4.4884	0.097194
4.4923	0.097213
4.4962	0.097313
4.5001	0.097309
4.5040	0.097236
4.5079	0.097334
4.5119	0.097475
4.5158	0.097389
4.5197	0.097336
4.5237	0.096991
4.5276	0.096923
4.5316	0.097087
4.5356	0.097021
4.5395	0.096906
4.5435	0.096919
4.5475	0.096853
4.5515	0.096713
4.5555	0.096619
4.5595	0.096687
4.5635	0.096693
4.5675	0.096595
4.5715	0.096478
4.5756	0.096244
4.5796	0.096029
4.5837	0.095901
4.5877	0.095744
4.5918	0.095525
4.5959	0.095423
4.5999	0.095220
4.6040	0.095016
4.6081	0.095060
4.6122	0.095003
4.6163	0.094582
4.6204	0.094275
4.6246	0.094024
4.6287	0.093986
4.6328	0.093834
4.6370	0.093515
4.6411	0.093321
4.6453	0.093045
4.6494	0.092928
4.6536	0.092713
4.6578	0.092498
4.6620	0.092189
4.6662	0.091797
4.6704	0.091601
4.6746	0.091408
4.6788	0.091267
4.6830	0.091129
4.6873	0.090767
4.6915	0.090535
4.6958	0.090335
4.7000	0.090096
4.7043	0.089898
4.7086	0.089549
4.7129	0.089547
4.7171	0.089507
4.7214	0.089036
4.7257	0.088810
4.7301	0.088815
4.7344	0.088727
4.7387	0.088363
4.7430	0.088127
4.7474	0.088180
4.7517	0.088299
4.7561	0.088176
4.7605	0.088217
4.7648	0.088178
4.7692	0.087780
4.7736	0.087491
4.7780	0.087456
4.7824	0.087308
4.7868	0.086971
4.7913	0.086656
4.7957	0.086575
4.8001	0.086622
4.8046	0.086324
4.8090	0.086051
4.8135	0.085922
4.8180	0.085751
4.8225	0.085668
4.8269	0.085502
4.8314	0.085253
4.8359	0.084879
4.8405	0.084421
4.8450	0.084359
4.8495	0.084555
4.8541	0.084368
4.8586	0.084138
4.8632	0.084093
4.8677	0.084206
4.8723	0.084114
4.8769	0.084183
4.8815	0.084204
4.8861	0.083978
4.8907	0.083563
4.8953	0.083469
4.8999	0.083720
4.9046	0.083757
4.9092	0.083348
4.9139	0.083152
4.9185	0.083190
4.9232	0.083031
4.9279	0.083037
4.9326	0.083263
4.9373	0.083322
4.9420	0.083073
4.9467	0.082877
4.9514	0.082827
4.9562	0.082871
4.9609	0.082897
4.9656	0.082763
4.9704	0.082465
4.9752	0.082288
4.9800	0.082090
4.9847	0.081907
4.9895	0.081917
4.9943	0.082043
4.9992	0.082394
5.0040	0.082565
5.0088	0.082250
5.0137	0.082015
5.0185	0.081909
5.0234	0.081941
5.0283	0.081869
5.0331	0.081500
5.0380	0.081387
5.0429	0.081407
5.0478	0.081138
5.0528	0.080957
5.0577	0.080992
5.0626	0.080823
5.0676	0.080672
5.0725	0.080549
5.0775	0.080512
5.0825	0.080349
5.0875	0.080083
5.0925	0.079948
5.0975	0.079870
5.1025	0.079642
5.1075	0.079429
5.1126	0.079167
5.1176	0.079108
5.1227	0.078893
5.1277	0.078482
5.1328	0.078335
5.1379	0.078326
5.1430	0.078324
5.1481	0.078394
5.1532	0.078430
5.1583	0.078298
5.1635	0.077911
5.1686	0.077875
5.1738	0.077868
5.1790	0.077856
5.1841	0.077743
5.1893	0.077677
5.1945	0.077928
5.1997	0.078137
5.2050	0.078226
5.2102	0.078179
5.2154	0.078479
5.2207	0.078875
5.2259	0.079001
5.2312	0.078901
5.2365	0.078916
5.2418	0.079103
5.2471	0.079431
5.2524	0.079629
5.2577	0.079819
5.2631	0.079897
5.2684	0.079978
5.2738	0.080144
5.2792	0.080270
5.2845	0.080459
5.2899	0.080710
5.2953	0.081060
5.3008	0.081211
5.3062	0.081353
5.3116	0.081803
5.3171	0.082013
5.3225	0.082284
5.3280	0.082531
5.3335	0.082812
5.3390	0.082999
5.3445	0.082961
5.3500	0.083348
5.3555	0.084129
5.3610	0.084266
5.3666	0.083833
5.3722	0.083484
5.3777	0.083414
5.3833	0.083506
5.3889	0.083386
5.3945	0.083414
5.4001	0.083548
5.4058	0.083467
5.4114	0.083467
5.4171	0.083503
5.4227	0.083885
5.4284	0.084242
5.4341	0.083967
5.4398	0.083859
5.4455	0.083984
5.4512	0.083806
5.4570	0.083646
5.4627	0.083780
5.4685	0.084400
5.4743	0.084415
5.4801	0.084193
5.4859	0.084470
5.4917	0.084521
5.4975	0.084385
5.5033	0.084331
5.5092	0.084517
5.5150	0.084689
5.5209	0.084762
5.5268	0.084702
5.5327	0.084619
5.5386	0.084287
5.5445	0.084148
5.5505	0.084389
5.5564	0.084329
5.5624	0.084185
5.5684	0.083999
5.5743	0.083750
5.5803	0.083946
5.5864	0.083904
5.5924	0.083244
5.5984	0.082745
5.6045	0.082612
5.6105	0.082535
5.6166	0.082409
5.6227	0.082424
5.6288	0.082199
5.6349	0.082032
5.6411	0.082290
5.6472	0.082771
5.6534	0.082635
5.6595	0.082330
5.6657	0.082115
5.6719	0.081981
5.6781	0.082282
5.6844	0.082311
5.6906	0.082062
5.6969	0.082198
5.7031	0.082111
5.7094	0.082181
5.7157	0.082456
5.7220	0.082648
5.7283	0.082405
5.7347	0.081909
5.7410	0.081877
5.7474	0.082126
5.7538	0.082130
5.7601	0.081885
5.7666	0.082216
5.7730	0.082890
5.7794	0.082339
5.7859	0.081538
5.7923	0.080910
5.7988	0.080781
5.8053	0.080868
5.8118	0.080723
5.8183	0.081166
5.8249	0.082109
5.8314	0.082247
5.8380	0.081664
5.8446	0.080842
5.8512	0.080604
5.8578	0.080791
5.8644	0.081009
5.8710	0.081253
5.8777	0.081243
5.8844	0.082030
5.8911	0.082194
5.8978	0.081539
5.9045	0.080974
5.9112	0.079804
5.9180	0.079271
5.9247	0.079103
5.9315	0.079197
5.9383	0.079889
5.9451	0.080519
5.9519	0.079516
5.9588	0.078290
5.9656	0.077741
5.9725	0.077964
5.9794	0.077983
5.9863	0.077643
5.9932	0.077788
6.0002	0.077596
6.0071	0.077230
6.0141	0.077164
6.0211	0.077362
6.0281	0.077140
6.0351	0.076723
6.0421	0.076744
6.0492	0.078124
6.0562	0.079344
6.0633	0.077843
6.0704	0.077434
6.0775	0.077830
6.0847	0.077290
6.0918	0.076527
6.0990	0.076110
6.1062	0.076123
6.1134	0.076936
6.1206	0.077564
6.1278	0.076711
6.1351	0.075940
6.1423	0.075731
6.1496	0.075686
6.1569	0.075772
6.1643	0.075942
6.1716	0.075620
6.1789	0.075020
6.1863	0.075337
6.1937	0.075829
6.2011	0.075267
6.2085	0.074799
6.2160	0.074799
6.2235	0.074807
6.2309	0.074918
6.2384	0.075105
6.2459	0.075039
6.2535	0.074958
6.2610	0.075171
6.2686	0.075410
6.2762	0.075446
6.2838	0.075555
6.2914	0.075936
6.2991	0.076051
6.3067	0.075880
6.3144	0.076016
6.3221	0.076234
6.3298	0.076402
6.3376	0.076544
6.3453	0.077283
6.3531	0.077917
6.3609	0.077385
6.3687	0.077334
6.3765	0.077992
6.3844	0.078239
6.3923	0.078081
6.4002	0.078035
6.4081	0.078545
6.4160	0.080119
6.4240	0.081175
6.4319	0.079853
6.4399	0.078961
6.4479	0.078646
6.4560	0.078733
6.4640	0.078775
6.4721	0.078939
6.4802	0.079465
6.4883	0.080046
6.4964	0.080678
6.5046	0.080302
6.5127	0.079131
6.5209	0.078869
6.5291	0.079156
6.5374	0.078592
6.5456	0.078290
6.5539	0.078475
6.5622	0.078767
6.5705	0.078973
6.5789	0.079303
6.5872	0.079108
6.5956	0.078869
6.6040	0.078635
6.6124	0.078196
6.6209	0.078077
6.6293	0.078182
6.6378	0.079108
6.6463	0.080000
6.6549	0.078850
6.6634	0.078043
6.6720	0.078230
6.6806	0.078588
6.6892	0.078624
6.6978	0.078105
6.7065	0.077675
6.7152	0.078094
6.7239	0.078520
6.7326	0.078169
6.7414	0.077603
6.7502	0.077289
6.7590	0.077155
6.7678	0.077009
6.7766	0.077124
6.7855	0.077281
6.7944	0.077628
6.8033	0.077605
6.8123	0.076717
6.8212	0.076308
6.8302	0.076500
6.8392	0.076389
6.8483	0.075940
6.8573	0.075968
6.8664	0.076693
6.8755	0.076498
6.8846	0.075316
6.8938	0.074699
6.9030	0.074456
6.9122	0.074448
6.9214	0.074284
6.9307	0.073867
6.9399	0.073534
6.9492	0.073336
6.9586	0.073485
6.9679	0.073918
6.9773	0.073388
6.9867	0.072664
6.9961	0.072508
7.0056	0.072278
7.0151	0.072082
7.0246	0.072110
7.0341	0.072004
7.0437	0.072059
7.0532	0.072642
7.0629	0.072306
7.0725	0.071795
7.0822	0.071689
7.0918	0.071553
7.1016	0.071252
7.1113	0.071197
7.1211	0.071263
7.1309	0.071069
7.1407	0.070737
7.1505	0.070673
7.1604	0.070650
7.1703	0.070512
7.1802	0.070484
7.1902	0.070054
7.2002	0.069724
7.2102	0.069856
7.2202	0.069730
7.2303	0.069343
7.2404	0.069140
7.2505	0.068811
7.2607	0.068562
7.2709	0.068396
7.2811	0.068332
7.2913	0.068253
7.3016	0.067893
7.3119	0.067642
7.3222	0.067203
7.3326	0.066974
7.3430	0.067122
7.3534	0.066886
7.3638	0.066292
7.3743	0.065784
7.3848	0.065471
7.3953	0.065266
7.4059	0.064975
7.4165	0.064768
7.4271	0.064585
7.4378	0.064227
7.4485	0.063789
7.4592	0.063497
7.4699	0.063438
7.4807	0.063289
7.4915	0.062912
7.5024	0.062667
7.5132	0.062267
7.5241	0.061749
7.5351	0.061313
7.5460	0.061334
7.5570	0.061215
7.5681	0.060736
7.5791	0.060415
7.5902	0.060149
7.6014	0.059906
7.6125	0.059761
7.6237	0.059682
7.6350	0.059393
7.6462	0.059193
7.6575	0.058988
7.6688	0.058718
7.6802	0.058597
7.6916	0.058403
7.7030	0.058065
7.7145	0.057671
7.7260	0.057409
7.7375	0.057053
7.7491	0.056643
7.7607	0.056114
7.7723	0.055557
7.7840	0.055208
7.7957	0.054837
7.8074	0.054467
7.8192	0.054022
7.8310	0.053701
7.8429	0.053328
7.8548	0.052890
7.8667	0.052370
7.8786	0.052181
7.8906	0.052076
7.9026	0.051848
7.9147	0.051506
7.9268	0.051165
7.9390	0.050784
7.9511	0.050439
7.9633	0.050131
7.9756	0.049811
7.9879	0.049713
8.0002	0.049296
8.0126	0.048849
8.0250	0.048545
8.0374	0.048276
8.0499	0.048289
8.0624	0.048202
8.0750	0.047672
8.0876	0.047244
8.1002	0.047170
8.1129	0.047210
8.1256	0.046897
8.1384	0.046592
8.1512	0.046360
8.1640	0.046139
8.1769	0.045999
8.1898	0.045664
8.2027	0.045286
8.2157	0.044879
8.2288	0.044304
8.2419	0.043949
8.2550	0.043676
8.2682	0.043582
8.2814	0.043240
8.2946	0.042720
8.3079	0.042205
8.3212	0.041522
8.3346	0.040996
8.3480	0.040738
8.3615	0.040257
8.3750	0.039604
8.3886	0.039182
8.4022	0.038744
8.4158	0.038284
8.4295	0.038143
8.4432	0.038054
8.4570	0.038011
8.4708	0.038112
8.4847	0.038754
8.4986	0.039817
8.5125	0.041345
8.5265	0.043738
8.5406	0.047576
8.5547	0.052502
8.5688	0.058920
8.5830	0.066948
8.5972	0.076185
8.6115	0.086699
8.6258	0.098303
8.6402	0.11097
8.6546	0.12423
8.6691	0.13785
8.6836	0.15181
8.6982	0.16620
8.7128	0.18092
8.7275	0.19590
8.7422	0.21110
8.7570	0.22585
8.7718	0.23965
8.7867	0.25197
8.8016	0.26244
8.8166	0.27163
8.8316	0.28096
8.8466	0.29112
8.8618	0.30194
8.8769	0.31253
8.8922	0.32145
8.9074	0.32796
8.9228	0.33220
8.9382	0.33465
8.9536	0.33618
8.9691	0.33793
8.9846	0.34000
9.0002	0.34190
9.0159	0.34344
9.0316	0.34416
9.0474	0.34367
9.0632	0.34260
9.0790	0.34099
9.0950	0.33909
9.1110	0.33665
9.1270	0.33415
9.1431	0.33136
9.1593	0.32892
9.1755	0.32702
9.1917	0.32550
9.2081	0.32402
9.2244	0.32345
9.2409	0.32350
9.2574	0.32326
9.2739	0.32293
9.2906	0.32242
9.3072	0.32198
9.3240	0.32157
9.3408	0.32120
9.3576	0.32046
9.3746	0.31958
9.3915	0.31821
9.4086	0.31654
9.4257	0.31485
9.4429	0.31285
9.4601	0.31085
9.4774	0.30875
9.4948	0.30661
9.5122	0.30436
9.5297	0.30187
9.5472	0.29890
9.5648	0.29509
9.5825	0.29092
9.6003	0.28671
9.6181	0.28159
9.6359	0.27619
9.6539	0.27092
9.6719	0.26616
9.6900	0.26165
9.7081	0.25722
9.7263	0.25283
9.7446	0.24825
9.7630	0.24355
9.7814	0.23885
9.7999	0.23375
9.8184	0.22884
9.8371	0.22437
9.8558	0.22020
9.8745	0.21631
9.8934	0.21357
9.9123	0.21196
9.9313	0.21124
9.9504	0.21122
9.9695	0.21167
9.9887	0.21322
10.008	0.21605
10.027	0.21881
10.047	0.22183
10.066	0.22516
10.086	0.22806
10.106	0.23046
10.125	0.23313
10.145	0.23528
10.165	0.23778
10.185	0.24041
10.205	0.24298
10.225	0.24638
10.245	0.25112
10.266	0.25615
10.286	0.26048
10.306	0.26335
10.327	0.26427
10.348	0.26374
10.368	0.26218
10.389	0.25994
10.410	0.25876
10.431	0.25892
10.452	0.25961
10.473	0.26071
10.494	0.26164
10.515	0.26182
10.537	0.26110
10.558	0.25975
10.580	0.25858
10.602	0.25719
10.623	0.25536
10.645	0.25344
10.667	0.25140
10.689	0.24930
10.711	0.24702
10.733	0.24393
10.755	0.24014
10.778	0.23596
10.800	0.23111
10.823	0.22520
10.845	0.21878
10.868	0.21258
10.891	0.20624
10.914	0.20017
10.937	0.19518
10.960	0.19157
10.983	0.18914
11.007	0.18758
11.030	0.18666
11.054	0.18639
11.077	0.18746
11.101	0.19074
11.125	0.19697
11.149	0.20532
11.173	0.21466
11.197	0.22392
11.221	0.23231
11.245	0.23932
11.270	0.24426
11.294	0.24755
11.319	0.24918
11.344	0.24908
11.369	0.24785
11.394	0.24611
11.419	0.24375
11.444	0.24074
11.469	0.23733
11.495	0.23391
11.520	0.23047
11.546	0.22709
11.572	0.22375
11.598	0.21959
11.624	0.21571
11.650	0.21228
11.676	0.20903
11.702	0.20544
11.729	0.20204
11.755	0.19878
11.782	0.19527
11.809	0.19221
11.836	0.18991
11.863	0.18784
11.890	0.18509
11.918	0.18224
11.945	0.18009
11.973	0.17842
12.000	0.17682
12.028	0.17491
12.056	0.17301
12.084	0.17148
12.112	0.16960
12.141	0.16785
12.169	0.16676
12.198	0.16533
12.227	0.16358
12.256	0.16191
12.285	0.16066
12.314	0.15944
12.343	0.15821
12.373	0.15665
12.402	0.15500
12.432	0.15366
12.462	0.15219
12.492	0.15082
12.522	0.15005
12.552	0.14889
12.583	0.14757
12.613	0.14626
12.644	0.14479
12.675	0.14319
12.706	0.14190
12.737	0.14093
12.769	0.13980
12.800	0.13834
12.832	0.13728
12.864	0.13601
12.896	0.13452
12.928	0.13363
12.960	0.13243
12.993	0.13134
13.025	0.13047
13.058	0.12951
13.091	0.12851
13.124	0.12718
13.158	0.12584
13.191	0.12451
13.225	0.12274
13.259	0.12104
13.293	0.11950
13.327	0.11869
13.361	0.11750
13.396	0.11604
13.430	0.11505
13.465	0.11482
13.500	0.11514
13.536	0.11515
13.571	0.11431
13.607	0.11378
13.642	0.11354
13.678	0.11398
13.715	0.11591
13.751	0.11882
13.788	0.12190
13.824	0.12393
13.861	0.12460
13.898	0.12383
13.936	0.12241
13.973	0.12041
14.011	0.11794
14.049	0.11573
14.087	0.11397
14.126	0.11255
14.164	0.11062
14.203	0.10850
14.242	0.10645
14.281	0.10479
14.321	0.10445
14.360	0.10431
14.400	0.10468
14.440	0.10749
14.481	0.11142
14.521	0.11616
14.562	0.12132
14.603	0.12554
14.644	0.12758
14.686	0.12749
14.728	0.12657
14.770	0.12452
14.812	0.12136
14.854	0.11795
14.897	0.11508
14.940	0.11239
14.983	0.10965
15.026	0.10620
15.070	0.10189
15.114	0.098298
15.158	0.096272
15.203	0.095065
15.247	0.094954
15.292	0.096319
15.338	0.099831
15.383	0.10533
15.429	0.11109
15.475	0.11592
15.521	0.11996
15.568	0.12262
15.615	0.12315
15.662	0.12149
15.710	0.11895
15.757	0.11590
15.805	0.11267
15.854	0.11018
15.902	0.10888
15.951	0.10911
16.000	0.11062
16.050	0.11313
16.100	0.11719
16.150	0.12259
16.200	0.12971
16.251	0.13926
16.302	0.15094
16.354	0.16472
16.405	0.17947
16.458	0.19378
16.510	0.20783
16.563	0.21998
16.616	0.23017
16.669	0.23963
16.723	0.24843
16.777	0.25517
16.832	0.26055
16.886	0.26568
16.942	0.26992
16.997	0.27361
17.053	0.27812
17.109	0.28313
17.166	0.28810
17.223	0.29471
17.280	0.30127
17.338	0.30703
17.396	0.31368
17.455	0.32015
17.514	0.32718
17.573	0.33423
17.633	0.34020
17.693	0.34530
17.754	0.34923
17.815	0.35141
17.876	0.35096
17.938	0.34834
18.000	0.34675
18.063	0.34465
18.126	0.34283
18.190	0.34214
18.254	0.34223
18.319	0.34198
18.383	0.34196
18.449	0.34354
18.515	0.34406
18.581	0.34228
18.648	0.34012
18.715	0.33706
18.783	0.33343
18.851	0.33253
18.920	0.33528
18.990	0.33973
19.059	0.34841
19.130	0.36200
19.201	0.37917
19.272	0.39732
19.344	0.41383
19.416	0.42720
19.489	0.43571
19.563	0.43865
19.637	0.43859
19.712	0.43745
19.787	0.43530
19.863	0.43063
19.939	0.42541
20.016	0.41980
20.094	0.41450
20.172	0.40936
20.251	0.40481
20.330	0.40257
20.410	0.39899
20.491	0.39262
20.572	0.38692
20.654	0.38161
20.737	0.37479
20.820	0.36623
20.904	0.35795
20.988	0.34870
21.074	0.33791
21.160	0.32919
21.246	0.32165
21.334	0.31491
21.422	0.31028
21.511	0.30619
21.601	0.30554
21.691	0.30544
21.782	0.30634
21.874	0.30857
21.967	0.31130
22.060	0.31274
22.154	0.31810
22.250	0.32363
22.345	0.32823
22.442	0.33183
22.540	0.33337
22.638	0.33354
22.737	0.33032
22.838	0.32609
22.939	0.32206
23.041	0.31489
23.143	0.30979
23.247	0.30331
23.352	0.29554
23.458	0.29029
23.564	0.28475
23.672	0.28196
23.780	0.28286
23.890	0.28202
24.001	0.27506
24.112	0.26849
24.225	0.26720
24.339	0.26406
24.453	0.26208
24.569	0.26422
24.686	0.26441
24.804	0.26179
24.924	0.26116
